Folder: Python_KD4014/data

Note: README.md
python-for-physical-scientists
=================

<https://northumbria-MPEE.github.io/python_KD4014/>

This is an introduction to Python for non-programmers based on content from
the two software carpentry courses:
[python-novice-gapminder][python-novice-gapminder] and
[python-novice-inflammation][python-novice-inflammation]. It has been adapted
for use with scientists in the physical sciences, using UVVis data as a motivating example.
It was initially developed by Dr Lucy Whalley for the Python component in the KD4014 course delivered at Northumbria University.

[python-novice-inflammation]: https://github.com/swcarpentry/python-novice-inflammation
[python-novice-gapminder]: https://github.com/swcarpentry/python-novice-gapminder

File: transmittance_cleaned.csv
# Wavelength (nm),Transmittance ITO (%),Transmittance CdS (%),Transmittance Si (%),Transmittance GaAs (%)
#
300 0.098 0.084 -0.003 0.075
301 0.097 0.083 -0.004 0.078
302 0.102 0.088 -0.004 0.077
303 0.102 0.089 -0.001 0.082
304 0.104 0.088 0.002 0.077
305 0.093 0.086 0.003 0.082
306 0.093 0.084 0.001 0.079
307 0.093 0.087 -0.001 0.08
308 0.099 0.09 -0.002 0.077
309 0.1 0.089 -0.002 0.082
310 0.095 0.088 -0.001 0.077
311 0.101 0.084 0.000000000000000000e+00 0.073
312 0.105 0.085 0.000000000000000000e+00 0.068
313 0.114 0.086 0.000000000000000000e+00 0.074
314 0.115 0.09 0.000000000000000000e+00 0.079
315 0.118 0.093 0.000000000000000000e+00 0.08
316 0.121 0.091 0.000000000000000000e+00 0.079
317 0.123 0.092 0.000000000000000000e+00 0.078
318 0.131 0.089 0.001 0.076
319 0.148 0.095 0.000000000000000000e+00 0.071
320 0.16 0.092 0.000000000000000000e+00 0.076
321 0.176 0.094 -0.001 0.083
322 0.192 0.099 0.000000000000000000e+00 0.088
323 0.219 0.102 -0.002 0.081
324 0.245 0.101 0.000000000000000000e+00 0.075
325 0.274 0.09 0.000000000000000000e+00 0.074
326 0.306 0.089 0.001 0.075
327 0.344 0.087 -0.001 0.078
328 0.39 0.09 0.000000000000000000e+00 0.076
329 0.447 0.088 0.000000000000000000e+00 0.079
330 0.518 0.089 0.000000000000000000e+00 0.077
331 0.595 0.087 0.000000000000000000e+00 0.078
332 0.677 0.09 -0.001 0.074
333 0.771 0.09 0.000000000000000000e+00 0.075
334 0.872 0.091 0.000000000000000000e+00 0.076
335 0.984 0.09 0.000000000000000000e+00 0.077
336 1.117 0.093 0.000000000000000000e+00 0.076
337 1.271 0.092 0.000000000000000000e+00 0.072
338 1.45 0.094 -0.001 0.071
339 1.637 0.092 -0.001 0.073
340 1.841 0.097 0.000000000000000000e+00 0.078
341 2.043 0.097 0.001 0.078
342 2.266 0.096 0.002 0.077
343 2.512 0.092 0.001 0.079
344 2.792 0.091 0.001 0.077
345 3.08 0.094 0.000000000000000000e+00 0.077
346 3.387 0.096 0.001 0.074
347 3.733 0.095 0.001 0.076
348 4.086 0.094 0.001 0.078
349 4.46 0.094 0.000000000000000000e+00 0.078
350 4.838 0.096 0.001 0.079
351 5.265 0.095 0.001 0.078
352 5.715 0.094 0.001 0.08
353 6.158 0.095 0.000000000000000000e+00 0.079
354 6.624 0.094 0.000000000000000000e+00 0.08
355 7.087 0.096 0.000000000000000000e+00 0.079
356 7.602 0.095 0.000000000000000000e+00 0.082
357 8.099 0.097 0.000000000000000000e+00 0.081
358 8.635 0.098 0.000000000000000000e+00 0.082
359 9.232 0.097 0.000000000000000000e+00 0.082
360 9.825 0.094 -0.001 0.083
361 10.462 0.093 0.000000000000000000e+00 0.082
362 11.075 0.092 0.000000000000000000e+00 0.083
363 11.742 0.092 0.001 0.083
364 12.392 0.094 0.000000000000000000e+00 0.084
365 13.089 0.097 0.000000000000000000e+00 0.082
366 13.806 0.098 0.000000000000000000e+00 0.086
367 14.567 0.097 0.000000000000000000e+00 0.087
368 15.38 0.093 0.000000000000000000e+00 0.089
369 16.123 0.093 0.000000000000000000e+00 0.086
370 16.966 0.093 0.000000000000000000e+00 0.083
371 17.732 0.097 0.000000000000000000e+00 0.083
372 18.741 0.096 0.000000000000000000e+00 0.087
373 19.656 0.097 0.001 0.092
374 20.584 0.093 0.001 0.094
375 21.391 0.095 0.001 0.094
376 22.23 0.096 0.000000000000000000e+00 0.095
377 23.107 0.097 0.000000000000000000e+00 0.096
378 23.909 0.096 0.000000000000000000e+00 0.099
379 24.655 0.096 0.000000000000000000e+00 0.101
380 25.371 0.096 0.000000000000000000e+00 0.102
381 26.121 0.097 0.000000000000000000e+00 0.103
382 26.839 0.096 0.000000000000000000e+00 0.103
383 27.492 0.095 -0.001 0.104
384 28.155 0.095 0.000000000000000000e+00 0.106
385 28.77 0.096 0.000000000000000000e+00 0.108
386 29.453 0.097 0.000000000000000000e+00 0.109
387 30.078 0.098 0.000000000000000000e+00 0.11
388 30.754 0.097 0.000000000000000000e+00 0.111
389 31.38 0.096 0.000000000000000000e+00 0.112
390 32.075 0.095 0.000000000000000000e+00 0.111
391 32.809 0.096 0.000000000000000000e+00 0.111
392 33.547 0.097 0.000000000000000000e+00 0.112
393 34.333 0.097 -0.001 0.113
394 35.193 0.097 -0.001 0.113
395 36.179 0.096 -0.001 0.114
396 37.139 0.096 0.000000000000000000e+00 0.113
397 38.155 0.095 0.000000000000000000e+00 0.115
398 39.236 0.095 0.000000000000000000e+00 0.116
399 40.401 0.095 -0.001 0.117
400 41.581 0.096 -0.001 0.118
401 42.716 0.098 -0.001 0.118
402 43.909 0.098 0.000000000000000000e+00 0.119
403 45.072 0.096 -0.001 0.119
404 46.271 0.096 0.000000000000000000e+00 0.119
405 47.416 0.096 0.000000000000000000e+00 0.12
406 48.568 0.097 0.000000000000000000e+00 0.121
407 49.686 0.096 -0.001 0.122
408 50.75 0.098 -0.001 0.123
409 51.702 0.098 -0.001 0.124
410 52.558 0.098 -0.001 0.124
411 53.31 0.096 -0.001 0.126
412 53.949 0.095 0.000000000000000000e+00 0.125
413 54.466 0.095 0.000000000000000000e+00 0.126
414 54.814 0.095 0.000000000000000000e+00 0.126
415 55.097 0.096 0.000000000000000000e+00 0.127
416 55.306 0.096 -0.001 0.127
417 55.531 0.099 0.000000000000000000e+00 0.126
418 55.679 0.099 0.000000000000000000e+00 0.125
419 55.732 0.099 0.000000000000000000e+00 0.127
420 55.817 0.099 0.000000000000000000e+00 0.129
421 55.828 0.099 0.000000000000000000e+00 0.132
422 55.894 0.101 0.000000000000000000e+00 0.133
423 55.857 0.1 -0.001 0.134
424 55.892 0.099 0.000000000000000000e+00 0.136
425 55.887 0.096 -0.001 0.136
426 55.935 0.095 -0.001 0.137
427 56.041 0.096 -0.001 0.138
428 56.221 0.097 0.000000000000000000e+00 0.138
429 56.455 0.096 0.001 0.14
430 56.723 0.095 0.000000000000000000e+00 0.138
431 57.08 0.096 -0.001 0.139
432 57.48 0.096 0.000000000000000000e+00 0.139
433 58.004 0.098 0.000000000000000000e+00 0.141
434 58.598 0.097 0.000000000000000000e+00 0.142
435 59.275 0.098 -0.001 0.142
436 59.931 0.097 0.000000000000000000e+00 0.144
437 60.659 0.097 0.000000000000000000e+00 0.145
438 61.464 0.096 0.000000000000000000e+00 0.145
439 62.375 0.096 0.000000000000000000e+00 0.145
440 63.327 0.097 0.000000000000000000e+00 0.145
441 64.312 0.099 0.000000000000000000e+00 0.145
442 65.329 0.099 0.000000000000000000e+00 0.145
443 66.356 0.099 0.000000000000000000e+00 0.147
444 67.433 0.097 0.000000000000000000e+00 0.149
445 68.532 0.097 0.000000000000000000e+00 0.15
446 69.66 0.096 0.000000000000000000e+00 0.148
447 70.79 0.097 -0.001 0.149